File: data/raman/r040.txt
#Wave		#Intensity
4002.11	4359.82
4000.02	4329.79
3997.92	4431.42
3995.82	4286.29
3993.73	4248.49
3991.63	4271.45
3989.53	4301.52
3987.42	4278.03
3985.32	4333.03
3983.22	4320.25
3981.11	4414.37
3979.01	4401.55
3976.9	4417.23
3974.79	4315.49
3972.68	4249.4
3970.57	4297.11
3968.46	4351.88
3966.35	4442.11
3964.24	4361.89
3962.12	4281.74
3960.01	4382.5
3957.89	4401.66
3955.78	4332.23
3953.66	4383.25
3951.54	4331.6
3949.42	4340.12
3947.3	4274.4
3945.18	4286.47
3943.05	4333.86
3940.93	4307.06
3938.8	4276.75
3936.68	4154.78
3934.55	4360.77
3932.42	4323.43
3930.29	4155.82
3928.16	4178.46
3926.03	4260.89
3923.9	4290.49
3921.77	4460.67
3919.63	4279.33
3917.5	4263.23
3915.36	4475.29
3913.22	4259.12
3911.08	4218.5
3908.95	4353.16
3906.8	4424.63
3904.66	4222.91
3902.52	4402.88
3900.38	4253.83
3898.23	4360.18
3896.09	4351.09
3893.94	4226.73
3891.79	4305
3889.64	4299.44
3887.49	4325.28
3885.34	4420.81
3883.19	4258.39
3881.04	4270.27
3878.88	4233.4
3876.73	4092.18
3874.57	4319.76
3872.42	4258.58
3870.26	4207.89
3868.1	4296.16
3865.94	4339.22
3863.78	4361.42
3861.62	4331.58
3859.45	4454.28
3857.29	4344.73
3855.12	4387.66
3852.96	4364.78
3850.79	4328.09
3848.62	4339.84
3846.45	4410.33
3844.28	4418.58
3842.11	4247.25
3839.94	4366.01
3837.76	4398.4
3835.59	4248.02
3833.41	4325.24
3831.23	4423.06
3829.06	4417.49
3826.88	4480.75
3824.7	4382.28
3822.52	4352.67
3820.33	4288.72
3818.15	4283.22
3815.97	4360.13
3813.78	4337.44
3811.6	4390.23
3809.41	4398.41
3807.22	4204.4
3805.03	4305.13
3802.84	4368.1
3800.65	4300.99
3798.46	4391.26
3796.26	4221.65
3794.07	4434.87
3791.87	4296.14
3789.67	4287.25
3787.48	4517.18
3785.28	4368.38
3783.08	4342.42
3780.88	4302.85
3778.67	4351.86
3776.47	4353.17
3774.27	4422.52
3772.06	4471.4
3769.85	4431.86
3767.65	4473.9
3765.44	4359.7
3763.23	4452.63
3761.02	4470.84
3758.81	4492.42
3756.59	4395.37
3754.38	4447.46
3752.17	4431.78
3749.95	4439.8
3747.73	4393.69
3745.51	4557.24
3743.29	4528.01
3741.08	4394.11
3738.85	4510.16
3736.63	4470.87
3734.41	4377.66
3732.18	4648.61
3729.96	4612.68
3727.73	4452.18
3725.5	4524.09
3723.27	4585.85
3721.04	4576.92
3718.81	4406.65
3716.58	4612.83
3714.35	4664.35
3712.11	4480.86
3709.88	4612.9
3707.64	4630.8
3705.41	4725.77
3703.17	4539.25
3700.93	4717.88
3698.69	4621.9
3696.45	4813.7
3694.2	4734.48
3691.96	4615.24
3689.71	4726.59
3687.47	4654.21
3685.22	4722.05
3682.97	4803.17
3680.72	4930.89
3678.47	4795.22
3676.22	4999.42
3673.97	5123.53
3671.72	4918.09
3669.46	5015.5
3667.21	4996.47
3664.95	5040.59
3662.69	5141.12
3660.43	5178.48
3658.17	5146.13
3655.91	5200.04
3653.65	5369.91
3651.38	5400.46
3649.12	5460.78
3646.85	5617.04
3644.59	5700.36
3642.32	5618.25
3640.05	5605.64
3637.78	5669.02
3635.51	5765.35
3633.24	5742.78
3630.97	5928.06
3628.69	5928.51
3626.42	5955.32
3624.14	5889.87
3621.86	6064.83
3619.58	6038.88
3617.3	6266.24
3615.02	6072.53
3612.74	6279.93
3610.46	6178.38
3608.17	6408.5
3605.89	6398.86
3603.6	6494.18
3601.32	6353.37
3599.03	6537.1
3596.74	6448.8
3594.45	6517.72
3592.15	6383.71
3589.86	6547.43
3587.57	6616.2
3585.27	6462.73
3582.98	6498.81
3580.68	6414.08
3578.38	6564.34
3576.08	6567.71
3573.78	6430.92
3571.48	6486.47
3569.18	6414.97
3566.87	6603.92
3564.57	6418.56
3562.26	6542.29
3559.95	6357.15
3557.65	6337.85
3555.34	6415.98
3553.03	6276.59
3550.71	6286.54
3548.4	6244.62
3546.09	6180.04
3543.77	6190.03
3541.46	6316.56
3539.14	6290.87
3536.82	6100.25
3534.5	6161.97
3532.18	6323.81
3529.86	6107.61
3527.54	6111.13
3525.21	5956.53
3522.89	6118.16
3520.56	6044.3
3518.23	5960.84
3515.9	6025.6
3513.57	6070.99
3511.24	5990.86
3508.91	5766.08
3506.58	5930.46
3504.25	5972.59
3501.91	6155.97
3499.57	5893.02
3497.24	5976.81
3494.9	5916.22
3492.56	5862.09
3490.22	5891.31
3487.88	5910.89
3485.53	6016.87
3483.19	5892.42
3480.84	5768.08
3478.5	5701.4
3476.15	5759.35
3473.8	5721.46
3471.45	5891.04
3469.1	5808.46
3466.75	5748.28
3464.39	5850.68
3462.04	5809.64
3459.68	5755.91
3457.33	5629.05
3454.97	5642.24
3452.61	5734.9
3450.25	5697.19
3447.89	5688.1
3445.53	5774.25
3443.16	5749.26
3440.8	5648.19
3438.43	5620.11
3436.07	5772.66
3433.7	5630.55
3431.33	5574.03
3428.96	5644.12
3426.59	5663.54
3424.22	5426.92
3421.84	5888.71
3419.47	5500.65
3417.09	5561.13
3414.71	5580.53
3412.34	5527.4
3409.96	5597.23
3407.58	5528.39
3405.2	5453.31
3402.81	5438.1
3400.43	5466.94
3398.04	5398.29
3395.66	5530.82
3393.27	5468.48
3390.88	5456.43
3388.49	5472.64
3386.1	5523.33
3383.71	5426.62
3381.32	5436.54
3378.92	5339.97
3376.53	5218.45
3374.13	5416.19
3371.73	5294.74
3369.33	5323.45
3366.93	5367.76
3364.53	5327.7
3362.13	5384.45
3359.73	5275.78
3357.32	5341.85
3354.92	5426.55
3352.51	5367.86
3350.1	5268.75
3347.69	5362.7
3345.28	5350.79
3342.87	5373.09
3340.46	5289.7
3338.04	5352.39
3335.63	5275.3
3333.21	5170.34
3330.79	5205.08
3328.37	5264.58
3325.95	5314.73
3323.53	5318.37
3321.11	5405.6
3318.69	5195.66
3316.26	5221
3313.84	5045.36
3311.41	5172.72
3308.98	5315.39
3306.55	5133.78
3304.12	5088.11
3301.69	5156.6
3299.26	5169.53
3296.83	5117.75
3294.39	5269.26
3291.96	5094.35
3289.52	5236.5
3287.08	5027.94
3284.64	5034.75
3282.2	5121.42
3279.76	5082.1
3277.31	5015.2
3274.87	5169.25
3272.42	4964.38
3269.98	4943.6
3267.53	5115.83
3265.08	5042.95
3262.63	5012.98
3260.18	5083.98
3257.73	4992.86
3255.27	5057.69
3252.82	4975.84
3250.36	4906.27
3247.9	5206.02
3245.44	5154.71
3242.99	5222.35
3240.52	5027.86
3238.06	4976.71
3235.6	5257.43
3233.13	4981.04
3230.67	5045.55
3228.2	5122.16
3225.73	5061.96
3223.26	4935.01
3220.79	5120.83
3218.32	5139.61
3215.85	5182.62
3213.38	4970.98
3210.9	5141.27
3208.42	5014.64
3205.95	5133.29
3203.47	5088.47
3200.99	5234.18
3198.51	4998.94
3196.02	5126.43
3193.54	5111.88
3191.06	5100.36
3188.57	5007.41
3186.08	4995.95
3183.59	5126.15
3181.11	5066.44
3178.62	5166.37
3176.12	5082.63
3173.63	5001.97
3171.14	5113.81
3168.64	5006.17
3166.14	5144.92
3163.65	5076.4
3161.15	5178.97
3158.65	5146.48
3156.14	4970.14
3153.64	5003.69
3151.14	5186.96
3148.63	5052.75
3146.13	5011.42
3143.62	5047.88
3141.11	4949.8
3138.6	5099.78
3136.09	5007.74
3133.58	5062.03
3131.06	5086.44
3128.55	5024.35
3126.03	4837.14
3123.51	5070.15
3121	4972.42
3118.48	4955.14
3115.96	5030.09
3113.43	5081.19
3110.91	5102.51
3108.38	5007.97
3105.86	4958.05
3103.33	5074.36
3100.8	4944.37
3098.27	5066.5
3095.74	4907.01
3093.21	5002.38
3090.68	4979.24
3088.14	4914.7
3085.61	5004.01
3083.07	4921.78
3080.53	4875.09
3078	4982
3075.46	5006.17
3072.91	4868.04
3070.37	4960.05
3067.83	4813.23
3065.28	5058.38
3062.73	5029.43
3060.19	5094.7
3057.64	4909.85
3055.09	5039.8
3052.54	5013.85
3049.98	5040.81
3047.43	4873.95
3044.87	4971.38
3042.32	4819.38
3039.76	4922.6
3037.2	5031.58
3034.64	4929.56
3032.08	5003.3
3029.52	4807.76
3026.95	4966.3
3024.39	4756.34
3021.82	4970.27
3019.25	4932.82
3016.68	4962.55
3014.11	4893.04
3011.54	4911.09
3008.97	4856.25
3006.4	4979.19
3003.82	4973.87
3001.25	4997.66
2998.67	4878.88
2996.09	4989.93
2993.51	4792.78
2990.93	4813.71
2988.34	4770.73
2985.76	5012.22
2983.18	4974.98
2980.59	4902.99
2978	4973.07
2975.41	4886.67
2972.82	4965.37
2970.23	5046.89
2967.64	4957.68
2965.05	4900.35
2962.45	4984.67
2959.85	4930.28
2957.26	4988.52
2954.66	5014.96
2952.06	4836.61
2949.46	5030.29
2946.85	4840.57
2944.25	4927.51
2941.65	4976.94
2939.04	4942.88
2936.43	5052.65
2933.82	5035.83
2931.21	4984.56
2928.6	5033.83
2925.99	4910.85
2923.38	4980.19
2920.76	4940.51
2918.14	5044.16
2915.53	5156.3
2912.91	5108
2910.29	5011.09
2907.66	5063.01
2905.04	5003.38
2902.42	4972.38
2899.79	5015.67
2897.17	4981.84
2894.54	4996.55
2891.91	5059.73
2889.28	5037.33
2886.65	5060.53
2884.01	4981.19
2881.38	4842.14
2878.74	5104.4
2876.11	4945.52
2873.47	4960.18
2870.83	5006.08
2868.19	5037.73
2865.55	4856.47
2862.9	4967.6
2860.26	5092.8
2857.61	4911.77
2854.97	4988.71
2852.32	4890.02
2849.67	5015.01
2847.02	5001.27
2844.37	4930.99
2841.71	4979.47
2839.06	4988.35
2836.4	4906.88
2833.74	4876.29
2831.08	5105.21
2828.42	4812.36
2825.76	4928.38
2823.1	5137.22
2820.44	5171.33
2817.77	5014.06
2815.11	4958.2
2812.44	5003.58
2809.77	5026.44
2807.1	5063.32
2804.43	4934.56
2801.75	4977.05
2799.08	5008.29
2796.41	5103.96
2793.73	4941.8
2791.05	5043.01
2788.37	4992.98
2785.69	5004.55
2783.01	5111.17
2780.33	5128.25
2777.64	5086.66
2774.96	5223.79
2772.27	5143.12
2769.58	5154.57
2766.89	5051.7
2764.2	5194.15
2761.51	5130.35
2758.81	5141.78
2756.12	5069.73
2753.42	5142.36
2750.72	5237.15
2748.03	5187.38
2745.33	5129.32
2742.62	5212.88
2739.92	5013.36
2737.22	5146.81
2734.51	5041.76
2731.8	5249.86
2729.1	5155.93
2726.39	5111.91
2723.68	5087.3
2720.96	5303.26
2718.25	5126.57
2715.54	5090.94
2712.82	5135.4
2710.1	5229.49
2707.38	5235.23
2704.66	5125.16
2701.94	5128.18
2699.22	5335.01
2696.5	4974.54
2693.77	5197.75
2691.04	5175.98
2688.32	5233.94
2685.59	5192.93
2682.86	5201.39
2680.12	5154.94
2677.39	5155.18
2674.66	5095.08
2671.92	5114.53
2669.18	5186.02
2666.45	5156.11
2663.71	5167.29
2660.96	5170.25
2658.22	5126.72
2655.48	5121.49
2652.73	5288.36
2649.99	5277.6
2647.24	5283.21
2644.49	5204.27
2641.74	5408.94
2638.99	5052.06
2636.23	5242.98
2633.48	5175.09
2630.72	5052.85
2627.97	5335.96
2625.21	5268.12
2622.45	5208.5
2619.69	5371.62
2616.92	5312
2614.16	5263.29
2611.39	5268.87
2608.63	5157.89
2605.86	5393.77
2603.09	5207.02
2600.32	5391.23
2597.55	5172.19
2594.77	5237.27
2592	5248.23
2589.22	5326.71
2586.45	5278.22
2583.67	5348.5
2580.89	5211.04
2578.1	5238.15
2575.32	5381.11
2572.54	5324.62
2569.75	5402.79
2566.96	5314.05
2564.18	5378.69
2561.39	5338.44
2558.6	5437.93
2555.8	5392.32
2553.01	5515.84
2550.21	5290.48
2547.42	5336.17
2544.62	5400.57
2541.82	5427.4
2539.02	5336.39
2536.22	5282.94
2533.42	5497.04
2530.61	5497.03
2527.8	5614.6
2525	5296.68
2522.19	5553.06
2519.38	5510.33
2516.57	5462.3
2513.75	5403.65
2510.94	5374.36
2508.12	5369.08
2505.31	5422.36
2502.49	5307.96
2499.67	5467.59
2496.85	5294.81
2494.02	5241.75
2491.2	5544.56
2488.38	5608.21
2485.55	5403.85
2482.72	5520.53
2479.89	5488.68
2477.06	5480.71
2474.23	5417.13
2471.39	5544.16
2468.56	5456.81
2465.72	5581.04
2462.88	5451.48
2460.05	5435.61
2457.21	5443.51
2454.36	5506.81
2451.52	5501.49
2448.68	5575.24
2445.83	5456.59
2442.98	5414.42
2440.13	5488.1
2437.28	5522.25
2434.43	5353.89
2431.58	5374.92
2428.72	5453.73
2425.87	5435.31
2423.01	5550.75
2420.15	5319.82
2417.29	5416.85
2414.43	5338.2
2411.57	5194.15
2408.7	5351.31
2405.84	5155.05
2402.97	5264.99
2400.1	5306.86
2397.23	5225.87
2394.36	5194.58
2391.49	5364.33
2388.61	5364.31
2385.74	5252.15
2382.86	5319.96
2379.98	5145.41
2377.1	5260.07
2374.22	5140.37
2371.34	5208.09
2368.46	5104.13
2365.57	5226.38
2362.68	5086.14
2359.79	5101.83
2356.91	5000.71
2354.02	5166.86
2351.12	5190.26
2348.23	5055.56
2345.33	5068.62
2342.44	5081.67
2339.54	5151.62
2336.64	4949.96
2333.74	5019.91
2330.84	5195.73
2327.93	5167.35
2325.03	4898.96
2322.12	5020.39
2319.21	5041.14
2316.3	5051.55
2313.39	5046.5
2310.48	4964.21
2307.56	4869.12
2304.65	4918.17
2301.73	4977.47
2298.81	4941.62
2295.9	4967.45
2292.97	4908.53
2290.05	4934.35
2287.13	4824.21
2284.2	4875.67
2281.28	4937.33
2278.35	4876.01
2275.42	4942.72
2272.49	4945.41
2269.55	4907.19
2266.62	5014.68
2263.69	5068.42
2260.75	4928.04
2257.81	4912.86
2254.87	4974.22
2251.93	5015.12
2248.99	5002.46
2246.04	4928.69
2243.1	4872.8
2240.15	4900.94
2237.2	4974.83
2234.25	4936.8
2231.3	4924.21
2228.35	4906.55
2225.39	4878.75
2222.44	4896.65
2219.48	5013.43
2216.52	4947.6
2213.56	4755.16
2210.6	5056.68
2207.64	4960.55
2204.68	4925.22
2201.71	4867.17
2198.74	4943.12
2195.77	4887.64
2192.8	4867.56
2189.83	4890.4
2186.86	4867.82
2183.88	4923.4
2180.91	5059.56
2177.93	4933.67
2174.95	4898.51
2171.97	4936.36
2168.99	4883.63
2166.01	4954.12
2163.02	4951.68
2160.03	4989.41
2157.05	5024.6
2154.06	5007.07
2151.07	4999.59
2148.07	4919.44
2145.08	5002.18
2142.09	4957.15
2139.09	4982.24
2136.09	5127.35
2133.09	4902.33
2130.09	5064.82
2127.09	5059.83
2124.08	5019.89
2121.08	5124.7
2118.07	5069.8
2115.06	5124.63
2112.05	5007.5
2109.04	5141.99
2106.03	5072.25
2103.01	5099.6
2100	4992.65
2096.98	5010.07
2093.96	5064.73
2090.94	5077.13
2087.92	4955.51
2084.89	5121.72
2081.87	4995.24
2078.84	4967.99
2075.82	5017.55
2072.79	5057.15
2069.76	5062.08
2066.72	4975.5
2063.69	5052.13
2060.65	5005.17
2057.62	5212.58
2054.58	5059.46
2051.54	5054.49
2048.5	5244.31
2045.46	5044.57
2042.41	5029.76
2039.37	5098.67
2036.32	5108.45
2033.27	4985.41
2030.22	4997.69
2027.17	5005.05
2024.11	5027.13
2021.06	5127.74
2018	5002.53
2014.94	5080.98
2011.88	4968.17
2008.82	5002.46
2005.76	4943.67
2002.7	4990.17
1999.63	5090.44
1996.56	4946.11
1993.49	4999.87
1990.43	4992.51
1987.35	4907.03
1984.28	4970.48
1981.21	4907.05
1978.13	4972.88
1975.05	4853.46
1971.97	4790.18
1968.89	4936.28
1965.81	4853.55
1962.72	4984.89
1959.64	4773.4
1956.55	4977.52
1953.46	4843.94
1950.38	4817.27
1947.28	4839.14
1944.19	4873.1
1941.1	4827.07
1938	4814.99
1934.9	4793.23
1931.8	4873.12
1928.7	4844.1
1925.6	4880.38
1922.5	4747.49
1919.39	4880.36
1916.29	4812.77
1913.18	4926.18
1910.07	4839.34
1906.96	4793.56
1903.84	4873.08
1900.73	4962.15
1897.61	4863.43
1894.49	4921.15
1891.38	4930.73
1888.25	4947.5
1885.13	4954.65
1882.01	4973.79
1878.88	4844.16
1875.75	4870.53
1872.63	4834.55
1869.5	4911.21
1866.37	4786.65
1863.23	4844.1
1860.1	4930.2
1856.96	4777.12
1853.82	4762.8
1850.68	4836.87
1847.54	4863.11
1844.4	4827.28
1841.26	4719.94
1838.11	4691.37
1834.96	4665.21
1831.81	4731.95
1828.66	4739.12
1825.51	4691.56
1822.36	4653.56
1819.2	4779.58
1816.05	4739.2
1812.89	4670.35
1809.73	4691.76
1806.57	4770.07
1803.4	4623.08
1800.24	4777.17
1797.07	4762.95
1793.91	4843.43
1790.74	4701.42
1787.56	4840.97
1784.39	4770.01
1781.22	4710.93
1778.04	4876.24
1774.87	4800.65
1771.69	4647.28
1768.51	4687.4
1765.32	4699.21
1762.14	4755.75
1758.96	4821.65
1755.77	4800.42
1752.58	4809.79
1749.39	4750.97
1746.2	4859.03
1743.01	4788.5
1739.81	4708.65
1736.62	4722.73
1733.42	4910.31
1730.22	4914.89
1727.02	4872.61
1723.81	4870.18
1720.61	4804.56
1717.4	4753.04
1714.2	4806.78
1710.99	4757.64
1707.78	4764.61
1704.57	4771.57
1701.35	4832.18
1698.14	4703.83
1694.92	4722.46
1691.7	4682.83
1688.48	4741.03
1685.26	4882.96
1682.04	4715.35
1678.81	4866.45
1675.58	4689.73
1672.36	4717.58
1669.12	4671.11
1665.89	4657.17
1662.66	4698.9
1659.43	4849.55
1656.19	4763.71
1652.95	4545.96
1649.71	4627.01
1646.47	4580.74
1643.23	4636.26
1639.98	4719.45
1636.74	4525.35
1633.49	4608.52
1630.24	4767.75
1626.99	4682.32
1623.73	4523.21
1620.48	4620.03
1617.22	4645.35
1613.97	4601.59
1610.71	4493.45
1607.45	4580.88
1604.19	4417.69
1600.92	4511.97
1597.65	4479.85
1594.39	4553.34
1591.12	4516.65
1587.85	4484.58
1584.58	4560.25
1581.3	4686.22
1578.03	4651.82
1574.75	4594.57
1571.47	4651.73
1568.19	4747.69
1564.91	4644.78
1561.62	4669.85
1558.34	4809.02
1555.05	4774.66
1551.76	4740.35
1548.47	4653.64
1545.18	4806.2
1541.89	4842.49
1538.59	4703.52
1535.29	4557.88
1531.99	4639.7
1528.7	4664.63
1525.39	4646.39
1522.09	4693.99
1518.78	4621.3
1515.48	4732.36
1512.17	4625.72
1508.86	4623.4
1505.54	4657.3
1502.23	4634.59
1498.92	4507.86
1495.6	4573.41
1492.28	4523.66
1488.96	4514.61
1485.64	4532.65
1482.31	4539.4
1478.99	4579.96
1475.66	4498.77
1472.33	4496.5
1469	4469.47
1465.67	4359.2
1462.34	4496.46
1459	4548.15
1455.67	4455.98
1452.33	4491.92
1448.99	4702.91
1445.64	4458.22
1442.3	4411.13
1438.96	4590.46
1435.61	4489.57
1432.26	4471.63
1428.91	4538.76
1425.56	4534.23
1422.2	4464.88
1418.85	4603.41
1415.49	4464.84
1412.13	4413.47
1408.77	4478.19
1405.41	4342.12
1402.04	4489.27
1398.68	4451.36
1395.31	4478.06
1391.94	4406.81
1388.57	4391.23
1385.2	4297.86
1381.82	4295.69
1378.45	4329.06
1375.07	4360.17
1371.69	4300.28
1368.31	4357.98
1364.92	4393.47
1361.54	4395.68
1358.15	4470.96
1354.77	4211.96
1351.38	4234.16
1347.98	4546
1344.59	4389
1341.2	4300.64
1337.8	4351.45
1334.4	4422.06
1331	4463.94
1327.6	4426.41
1324.2	4417.56
1320.79	4404.31
1317.38	4369.07
1313.98	4287.66
1310.57	4399.83
1307.15	4454.74
1303.74	4419.54
1300.32	4351.44
1296.91	4347.04
1293.49	4311.94
1290.07	4248.37
1286.64	4333.86
1283.22	4296.63
1279.79	4452.04
1276.37	4244.14
1272.94	4296.66
1269.51	4246.4
1266.07	4362.2
1262.64	4215.9
1259.2	4285.77
1255.76	4283.6
1252.32	4272.7
1248.88	4375.12
1245.44	4320.64
1241.99	4377.21
1238.55	4361.94
1235.1	4411.91
1231.65	4509.64
1228.2	4420.47
1224.74	4587.57
1221.29	4426.83
1217.83	4450.61
1214.37	4649.95
1210.91	4667.09
1207.45	4458.99
1203.98	4586.59
1200.52	4794.11
1197.05	4674.91
1193.58	4784.92
1190.11	4665.84
1186.63	4739.03
1183.16	4848.84
1179.68	4902.45
1176.2	4979.72
1172.72	5067.68
1169.24	4987.57
1165.76	4967.82
1162.27	4976.05
1158.79	5240.14
1155.29	5274.01
1151.8	5325.03
1148.31	5391.02
1144.82	5394.71
1141.32	5552.83
1137.82	5502.84
1134.32	5680.01
1130.82	5835.59
1127.32	5883.99
1123.81	6007.21
1120.31	6140.99
1116.8	6328.07
1113.29	6427.38
1109.77	6473.2
1106.26	6533.92
1102.74	6771.59
1099.23	6810.77
1095.71	6960.7
1092.19	7023.17
1088.66	7206.89
1085.14	7298.94
1081.61	7529.11
1078.08	7457.26
1074.55	7695.6
1071.02	8033.48
1067.49	8016.64
1063.95	8271.29
1060.41	8362.46
1056.87	8279.8
1053.33	8616.5
1049.79	8817.4
1046.24	8918.67
1042.7	8956.4
1039.15	9123
1035.6	9245.06
1032.05	9472.56
1028.49	9488.82
1024.94	9608.39
1021.38	9770
1017.82	9722.87
1014.26	9835.82
1010.7	9971.8
1007.13	9937.25
1003.57	9948.98
999.998	10036.4
996.428	9919.9
992.855	9914.82
989.281	9916.04
985.705	9818.69
982.127	9861.87
978.549	9760.45
974.967	9661.22
971.385	9606.05
967.799	9699.44
964.213	9477.04
960.623	9440.84
957.033	9519.54
953.441	9412.37
949.848	9443.02
946.252	9459.03
942.654	9295.77
939.055	9313.92
935.453	9396.59
931.85	9102.5
928.244	9091.59
924.637	8895.67
921.027	8864.09
917.418	8926
913.805	8786.5
910.189	8852.52
906.574	8789.92
902.955	8557.42
899.336	8466.03
895.713	8258.78
892.09	8233.84
888.465	7900.76
884.836	7888.43
881.207	7667.43
877.576	7607.73
873.943	7459.34
870.309	7519.46
866.672	7457.86
863.033	7140.78
859.393	7062.95
855.75	6952.27
852.105	6808.77
848.459	6821.72
844.811	6649.65
841.162	6722.25
837.51	6761.91
833.855	6653.76
830.199	6516.99
826.543	6679.71
822.883	6575.86
819.223	6531.51
815.559	6794.26
811.895	6721.2
808.227	6697.28
804.559	6751.06
800.887	6774.14
797.215	6780.85
793.541	6540.63
789.863	6857.49
786.186	6760.18
782.506	6960.45
778.824	6855.03
775.141	6918.67
771.453	6880.51
767.766	7001
764.076	7005.51
760.385	6932.83
756.691	7091.67
752.996	6988.58
749.299	7189.81
745.6	7054.34
741.898	7119.58
738.195	7115.9
734.49	7170.92
730.783	7318.93
727.074	7331.32
723.363	7287.12
719.65	7477.25
715.938	7336.11
712.221	7406.97
708.502	7582.62
704.781	7584.74
701.059	7536.5
697.336	7697.71
693.609	7560.9
689.881	7643.48
686.15	7685.76
682.42	7772.2
678.686	7784.25
674.949	7988.97
671.213	7890.54
667.473	7878.43
663.73	7944.5
659.986	7864.26
656.242	8222.56
652.494	7938.15
648.744	7918.04
644.994	7877.95
641.24	8005.73
637.486	8017.55
633.729	8075.27
629.969	8083.05
626.209	8270.26
622.445	8273.94
618.68	8494.71
614.914	8667.47
611.145	8525.69
607.373	8863.3
603.602	9101.19
599.826	9193.8
596.049	9353.83
592.271	9757.77
588.49	9732.87
584.707	9838.83
580.924	10113.1
577.137	10375.2
573.348	10439.1
569.559	10435.6
565.766	10497.4
561.971	10786.4
558.174	10767
554.377	10781.1
550.576	10957.1
546.773	10943.5
542.969	10963.4
539.164	11282.8
535.355	11379.3
531.545	11410.7
527.732	11457.9
523.918	11774.4
520.102	11839
516.283	12137.2
512.463	12327.2
508.643	12587.6
504.818	12751.6
500.992	12729.3
497.164	12979.3
493.334	13031.2
489.502	12940.3
485.666	12898.3
481.83	12645.3
477.992	12728.6
474.152	12556
470.311	12479.1
466.467	12248.3
462.619	12210.7
458.771	11991.9
454.922	11872.7
451.07	11926.9
447.215	11848.6
443.359	11774.4
439.5	11675
435.641	11530.9
431.777	11482.2
427.914	11466.5
424.047	11392.6
420.18	11392.5
416.309	11237.3
412.438	11390.2
408.562	11244.9
404.686	11061.1
400.807	10869.7
396.928	10887.2
393.045	10997.4
389.16	10883.5
385.273	10850.8
381.385	10683.1
377.494	10852.9
373.602	10797.2
369.707	10550.8
365.811	10566.5
361.91	10787.9
358.01	10751.5
354.107	11041.7
350.201	11026.3
346.295	10749.9
342.387	10684.8
338.475	10619.8
334.562	10986
330.646	10767.6
326.729	10687.3
322.811	10637.7
318.889	10515.5
314.965	10320.7
311.039	10519.7
307.111	10567.6
303.182	10674.7
299.25	10590.9
295.316	10552.9
291.381	10758.8
287.443	10642.7
283.504	10496.3
279.561	10551.7
275.617	10614.6
271.67	10764.8
267.723	10563.5
263.771	10594
259.82	10687.1
255.865	10844.6
251.908	10636.1
247.949	10819.9
243.988	10927.8
240.025	11154.8
236.061	11109.2
232.094	11141.2
228.125	11107
224.154	11157.8
220.182	11193.4
216.205	11189.4
212.229	11349.4
208.248	11415
204.266	11335.5
200.283	11410.5
196.297	11506.1
192.309	11417.3
188.318	11941.2
184.326	11955.6
180.332	11996.2
176.336	12117.5
172.338	12204.8
168.336	12359.6
164.334	12246.3
160.328	11994.5
156.322	12448.6
152.312	12477.5
148.303	12416.7
144.289	12718.5
140.273	12975
136.256	13233.2
132.236	13640.4
128.213	13521.3
124.189	13694.9
120.164	13832.9
116.135	13829.3
112.105	13641.5
108.072	14147.6
104.039	14089.9
100.002	14229.2
95.9629	14429.6
91.9219	14594.5
87.8789	14152.8
83.832	14786.7
79.7852	14682.5
75.7363	14798.8
71.6836	14750.3
67.6309	14161.6
63.5742	13584.7
59.5156	13485.1
55.4551	11976.5
51.3926	10936.5