File: data/raman/r183.txt
#Wave		#Intensity
4002.1	15037.4
4000.01	14810.7
3997.91	14749.9
3995.81	14817.9
3993.71	14975.1
3991.61	14996.4
3989.51	14971.4
3987.41	15142.6
3985.31	14899.9
3983.21	14988.9
3981.1	15028
3978.99	14881.9
3976.89	14657.6
3974.78	15077.5
3972.67	14657.7
3970.56	14721.7
3968.45	14881.6
3966.34	14934.8
3964.23	14977.3
3962.11	14792.7
3960	14799.8
3957.88	14838.7
3955.76	14406.5
3953.65	14435
3951.53	14679.3
3949.41	14838.4
3947.29	14576.7
3945.16	14534.4
3943.04	14714.6
3940.92	14735.7
3938.79	14749.8
3936.67	14598.1
3934.54	14513.5
3932.41	14580.5
3930.28	14672.1
3928.15	14330.6
3926.02	14570
3923.89	14422.3
3921.75	14742.3
3919.62	14499.8
3917.48	14440.1
3915.35	14563.1
3913.21	14401.7
3911.07	14251
3908.93	14815.4
3906.79	14401.9
3904.65	14465
3902.51	14391.6
3900.36	14696
3898.22	14612
3896.07	14566.5
3893.93	14545.5
3891.78	14517.6
3889.63	14611.8
3887.48	14381.5
3885.33	14419.9
3883.18	14493.1
3881.03	14353.8
3878.87	14649.8
3876.72	14514
3874.56	14500
3872.4	14326.2
3870.25	14625.1
3868.09	14812.5
3865.93	14718.6
3863.76	14569.3
3861.6	14472.1
3859.44	14700.8
3857.27	14589.8
3855.11	14593.2
3852.94	14510
3850.78	14565.3
3848.61	14665.5
3846.44	14658.4
3844.27	14499.4
3842.09	14288.7
3839.92	14416.4
3837.75	14406
3835.57	14516.3
3833.4	14392.2
3831.22	14667.7
3829.04	14719.2
3826.86	14701.8
3824.68	14522.7
3822.5	14412.6
3820.32	14340.4
3818.14	14663.2
3815.95	14422.7
3813.77	14731.5
3811.58	14556.3
3809.39	14525.3
3807.21	14288.8
3805.02	14881.2
3802.83	14240.8
3800.63	14634.3
3798.44	14435.7
3796.25	14548.4
3794.05	14671.3
3791.86	14469.5
3789.66	14462.6
3787.46	14728.6
3785.26	14759
3783.06	14680.3
3780.86	14550.6
3778.66	14662.8
3776.46	14727.2
3774.25	14767.8
3772.05	14709.7
3769.84	14634.6
3767.63	14586.8
3765.43	14899
3763.22	14511.7
3761	14955.9
3758.79	14836.8
3756.58	14829.7
3754.37	14798.8
3752.15	15089.7
3749.94	14953.8
3747.72	15102.2
3745.5	14831.3
3743.28	14959.3
3741.06	14891.3
3738.84	14867.3
3736.62	15066
3734.39	15136.3
3732.17	15206.5
3729.94	15084.7
3727.72	15131.3
3725.49	15255.3
3723.26	14911.5
3721.03	15133
3718.8	15065.3
3716.57	15286.5
3714.33	15178.4
3712.1	15238.2
3709.87	15227.5
3707.63	15277.2
3705.39	15018.5
3703.15	15527.2
3700.91	15231.8
3698.67	15361.7
3696.43	15274
3694.19	15397.1
3691.95	15433.1
3689.7	15298.8
3687.45	15374.9
3685.21	15437.6
3682.96	15320.1
3680.71	15496.1
3678.46	15565.3
3676.21	15427.9
3673.96	15523.7
3671.7	15662.6
3669.45	15761.5
3667.19	15930.1
3664.93	16042.1
3662.68	16266.9
3660.42	16239.1
3658.16	16466.9
3655.9	16502.1
3653.63	16686.4
3651.37	16658.5
3649.11	16869.1
3646.84	16993.4
3644.57	17584
3642.31	17582.2
3640.04	17659.7
3637.77	17555.4
3635.5	18019.2
3633.22	18046.8
3630.95	17823.7
3628.68	18751.6
3626.4	18119.7
3624.13	18891.7
3621.85	19014.3
3619.57	19021.6
3617.29	18867.7
3615.01	19223.6
3612.73	19421.4
3610.44	19395.6
3608.16	19632.6
3605.88	19655.9
3603.59	19840
3601.3	19617.4
3599.01	20161.7
3596.72	19912.9
3594.43	19759.3
3592.14	19736.8
3589.85	20159
3587.55	20087.2
3585.26	20195.1
3582.96	20038.5
3580.67	20355.3
3578.37	20188.9
3576.07	20391.1
3573.77	20237.9
3571.46	20143.5
3569.16	20120.8
3566.86	20443.1
3564.55	20241.4
3562.25	20495
3559.94	20306.4
3557.63	20400.6
3555.32	20280.4
3553.01	20442.7
3550.7	20721.5
3548.39	20598.1
3546.07	20513.7
3543.76	20222
3541.44	20461.6
3539.12	19775.4
3536.81	20108.8
3534.49	20024.7
3532.17	20225.2
3529.84	19999
3527.52	20205.7
3525.2	19744.3
3522.87	20154.1
3520.55	20173.4
3518.22	20060.6
3515.89	20015.5
3513.56	19674.3
3511.23	20186.1
3508.9	20073.5
3506.56	19768.1
3504.23	19848.6
3501.9	19993.2
3499.56	19771.7
3497.22	19948.3
3494.88	19781.6
3492.54	19996.4
3490.2	19640.9
3487.86	19634.6
3485.52	19775.6
3483.17	19865.3
3480.83	20114.7
3478.48	19804.6
3476.13	19638.6
3473.79	19878.2
3471.44	19760.1
3469.08	19747.4
3466.73	19789
3464.38	19722.1
3462.03	19808.2
3459.67	19508.9
3457.31	19486.8
3454.96	19751
3452.6	19484
3450.24	19535
3447.88	19671.7
3445.51	19605.1
3443.15	19510
3440.79	19294.5
3438.42	19301.1
3436.05	19209.4
3433.68	19906.4
3431.32	19365
3428.95	19396.8
3426.57	19653.1
3424.2	19526.8
3421.83	19561.6
3419.45	19365.9
3417.08	19224
3414.7	19258.9
3412.32	18928.1
3409.94	19391.7
3407.56	19067.4
3405.18	19011
3402.8	19064.8
3400.41	19178.3
3398.03	19103
3395.64	19257.3
3393.25	19122.4
3390.87	19044.1
3388.48	19013
3386.09	18897.2
3383.69	19076.2
3381.3	18879
3378.91	19192.5
3376.51	19073.7
3374.11	19042.7
3371.72	18805.2
3369.32	18905.6
3366.92	18737.1
3364.52	18953
3362.11	18722.2
3359.71	18969
3357.31	18866.4
3354.9	18729.5
3352.49	19066.3
3350.08	19141.2
3347.68	19035.5
3345.26	19293.9
3342.85	18970.6
3340.44	18865.1
3338.03	18955.4
3335.61	19002.2
3333.2	19027.2
3330.78	19151.4
3328.36	19077.1
3325.94	18680.5
3323.52	18724.2
3321.1	19188.9
3318.67	19111.6
3316.25	18861.1
3313.82	18981.9
3311.4	19189.1
3308.97	18732
3306.54	18868.1
3304.11	19343.4
3301.68	18763.6
3299.25	18908.7
3296.81	18998.2
3294.38	18758
3291.94	18927.5
3289.5	18798.4
3287.06	19026.2
3284.62	19029.3
3282.18	18878.8
3279.74	18759.2
3277.3	18744
3274.85	18722.7
3272.41	19041.8
3269.96	18769.1
3267.51	18913.2
3265.06	18806.1
3262.61	19112.3
3260.16	18714.6
3257.71	18974.7
3255.26	19029.7
3252.8	19029.7
3250.35	19121.3
3247.89	18938.1
3245.43	18889.4
3242.97	18965.6
3240.51	18788.9
3238.05	18920
3235.58	19309.7
3233.12	19163.4
3230.65	19035.6
3228.19	18941.3
3225.72	19053.7
3223.25	19281.4
3220.78	19178
3218.31	19299.3
3215.83	18901.8
3213.36	19511
3210.89	19189.6
3208.41	19458.9
3205.93	19165
3203.45	19285.9
3200.97	19191.9
3198.49	19348.9
3196.01	19215.7
3193.53	19445
3191.04	19197.2
3188.56	19682.7
3186.07	19712.4
3183.58	19504
3181.09	19365.1
3178.6	19792.3
3176.11	19659.4
3173.62	19812.3
3171.12	19568.3
3168.62	19790.2
3166.13	19915.9
3163.63	19870.2
3161.13	19707.6
3158.63	19803.1
3156.13	19784.6
3153.63	19840.9
3151.12	19777.5
3148.62	19747
3146.11	19668.6
3143.6	19530.6
3141.09	19891.8
3138.58	19673.1
3136.07	19726.3
3133.56	19358.6
3131.05	19671.5
3128.53	19539.7
3126.02	19551.2
3123.5	19616.2
3120.98	19868.8
3118.46	19487.2
3115.94	19367.7
3113.42	19872.8
3110.89	19625.4
3108.37	19844.7
3105.84	19677.8
3103.32	19422
3100.79	19632.1
3098.26	19687.8
3095.73	19879.8
3093.2	19624.4
3090.66	19706.7
3088.13	19750.5
3085.59	19542.8
3083.06	19973.8
3080.52	19976
3077.98	19750.8
3075.44	19815
3072.9	19717
3070.35	19663.2
3067.81	19809.9
3065.27	19768
3062.72	19681.9
3060.17	19746
3057.62	19633.5
3055.07	19706.3
3052.52	20037.7
3049.97	20066.2
3047.41	19989
3044.86	19932.4
3042.3	20048.9
3039.74	20048
3037.18	19906.5
3034.62	19677.2
3032.06	19784.8
3029.5	19959.6
3026.94	19727.7
3024.37	19805.8
3021.81	19971.6
3019.24	19818.8
3016.67	19651.6
3014.1	19662.6
3011.53	19609.3
3008.96	19640.7
3006.38	19704
3003.81	19513.9
3001.23	19804.3
2998.65	19634.7
2996.07	19503.1
2993.49	19894.8
2990.91	19478.5
2988.33	20000.4
2985.75	19697.6
2983.16	19894.1
2980.57	19487.2
2977.99	19527.1
2975.4	19821.8
2972.81	19716.7
2970.22	19594.3
2967.62	19743.9
2965.03	19983
2962.44	20068.7
2959.84	19848.1
2957.24	19977.1
2954.64	19828.9
2952.04	20162.6
2949.44	20210.5
2946.84	20145.9
2944.24	20248.5
2941.63	20166.8
2939.02	20171.4
2936.42	20147.3
2933.81	20390.5
2931.2	20176.6
2928.58	19937.1
2925.97	20426.9
2923.36	20419.9
2920.74	20195
2918.13	20428.8
2915.51	20648.1
2912.89	20016.8
2910.27	20276.1
2907.65	20243.4
2905.03	19996.3
2902.4	20415.3
2899.78	20328.3
2897.15	20161.4
2894.52	20148.8
2891.89	20293.1
2889.26	20271.8
2886.63	20410.2
2884	20394.6
2881.36	19818.3
2878.73	19854.2
2876.09	19969.7
2873.45	20008.4
2870.81	19958.9
2868.17	20159.4
2865.53	19619.5
2862.89	19595.2
2860.24	20144.3
2857.6	19936.1
2854.95	19841.5
2852.3	19996.1
2849.65	19709.1
2847	19775.9
2844.35	20066
2841.7	19954.5
2839.04	19704.8
2836.38	19788.4
2833.73	19821.1
2831.07	19732.6
2828.41	19917.5
2825.75	19995.2
2823.08	19808.1
2820.42	19860.4
2817.76	19780.5
2815.09	19694.9
2812.42	19809.1
2809.75	20108.5
2807.08	19919
2804.41	19741
2801.74	19989.5
2799.06	19985.4
2796.39	20090.7
2793.71	19753.1
2791.03	19763.2
2788.36	20058.6
2785.67	19629.3
2782.99	19854.6
2780.31	19945.6
2777.62	19969.5
2774.94	20118.9
2772.25	19980.8
2769.56	19965.5
2766.87	20006
2764.18	20027
2761.49	20150.9
2758.8	20043.7
2756.1	19936.6
2753.41	19938
2750.71	19972.8
2748.01	20196.5
2745.31	19934
2742.61	20013.2
2739.9	20219.9
2737.2	20032.6
2734.49	19997.9
2731.79	19860.7
2729.08	20006.2
2726.37	19833.2
2723.66	19884.4
2720.95	19686.7
2718.23	19693.7
2715.52	19954.9
2712.8	19757.4
2710.09	19789.2
2707.37	19964.4
2704.65	19441.9
2701.93	19595.1
2699.2	19629.6
2696.48	19631.1
2693.75	19750.9
2691.03	19614.7
2688.3	19539.2
2685.57	19917.2
2682.84	19715.2
2680.11	19711.1
2677.38	19778.4
2674.64	19557.6
2671.9	19668.7
2669.17	19741.3
2666.43	19564.7
2663.69	19555.2
2660.95	19696.1
2658.21	19637.3
2655.46	19641.4
2652.72	19659.2
2649.97	19682.4
2647.22	19659.2
2644.47	19742.4
2641.72	19664.6
2638.97	19804.9
2636.22	19678.1
2633.46	19611.4
2630.71	19528.4
2627.95	19532.5
2625.19	19395.2
2622.43	19668.3
2619.67	19558.3
2616.91	19347.9
2614.14	19582.7
2611.38	19356.2
2608.61	19466
2605.84	19570.3
2603.07	19238.6
2600.3	19597.3
2597.53	19355.1
2594.76	19378.1
2591.98	19252.5
2589.21	19361.9
2586.43	19455.1
2583.65	19510.4
2580.87	19360.6
2578.09	19353.9
2575.3	19366
2572.52	19340.4
2569.73	19438.7
2566.95	19902.7
2564.16	19417
2561.37	19310.8
2558.58	19425
2555.79	19504.1
2552.99	19478.5
2550.2	19461
2547.4	19577.5
2544.6	19557.2
2541.8	19333.4
2539	19680.1
2536.2	19485.8
2533.4	19361.3
2530.59	19718.1
2527.79	19422.6
2524.98	19325
2522.17	19414.3
2519.36	19354.1
2516.55	19459.4
2513.74	19532.5
2510.92	19411.1
2508.11	19588
2505.29	19618.4
2502.47	19204.4
2499.65	19046.1
2496.83	19454.1
2494.01	19378.2
2491.18	19108.5
2488.36	19112.4
2485.53	19132.3
2482.7	19014.2
2479.87	19079.2
2477.04	19464.5
2474.21	19224.7
2471.38	19030
2468.54	19036.6
2465.71	19164.8
2462.87	19150.1
2460.03	19048.3
2457.19	19052.2
2454.35	19053.5
2451.5	19410.7
2448.66	19456.6
2445.81	19584.1
2442.96	19429.7
2440.12	19522.9
2437.27	19702.7
2434.41	19885.1
2431.56	19822.8
2428.71	19810.4
2425.85	19732.5
2422.99	19523.4
2420.13	19474.5
2417.27	19656.3
2414.41	19444.9
2411.55	19511.4
2408.69	19174.6
2405.82	18848.6
2402.95	18938.7
2400.08	18942.5
2397.21	18888.9
2394.34	18968.4
2391.47	18901.7
2388.6	18848.1
2385.72	18713.7
2382.84	18855.7
2379.97	18599
2377.09	18699.2
2374.21	18721.3
2371.32	18626.3
2368.44	18656.2
2365.55	18267.6
2362.67	18315.8
2359.78	17977.1
2356.89	17968.3
2354	17964.6
2351.11	17673.3
2348.21	17550.6
2345.32	17671.5
2342.42	17321.1
2339.52	17449.8
2336.62	17192.9
2333.72	17218.1
2330.82	17240.6
2327.91	17263.2
2325.01	17087
2322.1	16652.9
2319.19	17008.3
2316.29	16788.6
2313.37	16927.2
2310.46	16671.8
2307.55	16761.4
2304.63	16668.3
2301.71	16665.2
2298.8	16641.6
2295.88	16597.5
2292.96	16707.4
2290.04	16878.9
2287.11	16629.5
2284.19	16541.9
2281.26	16467.1
2278.33	16443.7
2275.4	16517.5
2272.47	16194.7
2269.54	16317.2
2266.6	16291.3
2263.67	16441.7
2260.73	16354.4
2257.79	16336.2
2254.85	16073.1
2251.91	15937.7
2248.97	15993.6
2246.03	16209.9
2243.08	15924.4
2240.13	15817.3
2237.19	16140.2
2234.23	15667
2231.28	15895.6
2228.33	15852.3
2225.38	16111
2222.42	15676.8
2219.46	15798.5
2216.51	15780.6
2213.54	15565.1
2210.58	15646
2207.62	15582.6
2204.66	15585.1
2201.69	15526.9
2198.72	15673.4
2195.76	15349.9
2192.79	15304.5
2189.81	15587.2
2186.84	15604.7
2183.87	15476
2180.89	15476
2177.91	15387.8
2174.93	15596.7
2171.95	15651.9
2168.97	15455.6
2165.99	15362.5
2163	15332.3
2160.02	15234.4
2157.03	15442.7
2154.04	15339.8
2151.05	15460.1
2148.06	15683
2145.06	15231.9
2142.07	15352.1
2139.07	15534.7
2136.07	15527.1
2133.07	15401.9
2130.07	15256.9
2127.07	15314.3
2124.06	15391.6
2121.06	15142
2118.05	15196.9
2115.04	15181.9
2112.03	15338.9
2109.02	14972.7
2106.01	15154.5
2102.99	15234.1
2099.98	15316.1
2096.96	15069.9
2093.94	14853.8
2090.92	14774.5
2087.9	15015.4
2084.88	14881.5
2081.85	14735.3
2078.83	14703.2
2075.8	14923.8
2072.77	14673.9
2069.74	14523.1
2066.71	14852.3
2063.67	14736.2
2060.64	14501.6
2057.6	14679.6
2054.56	14768.6
2051.52	14773.7
2048.48	14556.8
2045.44	14618.6
2042.39	14510.4
2039.35	14680.5
2036.3	14761.8
2033.25	14515.9
2030.2	14565.3
2027.15	14708
2024.09	14622.1
2021.04	14664
2017.98	14556.1
2014.92	14289
2011.87	14205.9
2008.8	14176.9
2005.74	14284.9
2002.68	14209.3
1999.61	14160.7
1996.54	14129.3
1993.48	14019.6
1990.41	14049.3
1987.33	13744.5
1984.26	13845.1
1981.19	13721.2
1978.11	13704.6
1975.03	13671
1971.95	13476.7
1968.87	13567.4
1965.79	13602.1
1962.71	13340
1959.62	13309.1
1956.54	12935.7
1953.45	13310.5
1950.36	13187.4
1947.27	13122.6
1944.17	13317.4
1941.08	13313.2
1937.98	13224.2
1934.88	13304.8
1931.79	13206.3
1928.68	13209.4
1925.58	13270.5
1922.48	13331.6
1919.37	13298.4
1916.27	12997.3
1913.16	13130.8
1910.05	13264.2
1906.94	13185.3
1903.82	13210
1900.71	12965.1
1897.59	13175.3
1894.47	13197.6
1891.36	13159.8
1888.23	13160.5
1885.11	12949.8
1881.99	12969.8
1878.86	12996.9
1875.74	13098.4
1872.61	12888.1
1869.48	12920
1866.35	12681.3
1863.21	12785.1
1860.08	12695.1
1856.94	12657.7
1853.8	12465
1850.66	12475.5
1847.52	12435.9
1844.38	12637.3
1841.24	12294.7
1838.09	12226.6
1834.94	12382.6
1831.79	12400.2
1828.64	12110.8
1825.49	12069.1
1822.34	12015.5
1819.18	12225.8
1816.03	12248.2
1812.87	11971.5
1809.71	12005.8
1806.55	11978.5
1803.38	11846.9
1800.22	12009.2
1797.05	11946.4
1793.89	12042.3
1790.72	12142.7
1787.55	11912
1784.37	11830.4
1781.2	11727.7
1778.02	11830.5
1774.85	11836.4
1771.67	11816.3
1768.49	11826.9
1765.31	11799.8
1762.12	11921.1
1758.94	11705.7
1755.75	11874
1752.56	11677.5
1749.37	11413.1
1746.18	11710.5
1742.99	11707
1739.79	11407.8
1736.6	11514.7
1733.4	11759.9
1730.2	11622.7
1727	11621.6
1723.8	11655.6
1720.59	11706
1717.39	11484.9
1714.18	11462.8
1710.97	11277.2
1707.76	11407
1704.55	11436.3
1701.33	11285.9
1698.12	11285
1694.9	11279.3
1691.68	11359.9
1688.46	11226.1
1685.24	11260.1
1682.02	11098.6
1678.79	11188.4
1675.56	11259.5
1672.34	11116.8
1669.11	10997.5
1665.87	10917.7
1662.64	10947.1
1659.41	10879
1656.17	10903.7
1652.93	10801
1649.69	10665.9
1646.45	10711.5
1643.21	10673.8
1639.96	10534.4
1636.72	10404.4
1633.47	10369.1
1630.22	10453.9
1626.97	10404.9
1623.71	10222.2
1620.46	10023.5
1617.21	10020.8
1613.95	10013.4
1610.69	9753.03
1607.43	9943.61
1604.17	9623.74
1600.9	9878.51
1597.63	9710.53
1594.37	9701.07
1591.1	9856.78
1587.83	9762.42
1584.56	9807.94
1581.28	9608.33
1578.01	9713.4
1574.73	9740.56
1571.45	9669.35
1568.17	9730.79
1564.89	9748.75
1561.6	9800.95
1558.32	9955.8
1555.03	10055.7
1551.74	9720.07
1548.45	9731.15
1545.16	9676.15
1541.87	9673.57
1538.57	9623.2
1535.27	9568.33
1531.97	9649.9
1528.67	9656.41
1525.37	9460.8
1522.07	9515.06
1518.76	9734.88
1515.46	9464.68
1512.15	9319.41
1508.84	9380.42
1505.53	9271.55
1502.21	9074.54
1498.9	9248.66
1495.58	9002.11
1492.26	8984.03
1488.94	8764.95
1485.62	8751.52
1482.29	8923.09
1478.97	8792.32
1475.64	8738.31
1472.31	8724.9
1468.98	8745.27
1465.65	8790.38
1462.32	8657.74
1458.98	8682.61
1455.64	9013.05
1452.31	8671.62
1448.97	8590.93
1445.62	8730.19
1442.28	8692.16
1438.93	8526.39
1435.59	8479.53
1432.24	8618.56
1428.89	8457.56
1425.54	8506.98
1422.18	8341.71
1418.83	8328.57
1415.47	8485.18
1412.11	8480.9
1408.75	8228.95
1405.39	8271.63
1402.02	8102.51
1398.66	8238.78
1395.29	8027.53
1391.92	8083.57
1388.55	8172.92
1385.18	8010.93
1381.8	7949.11
1378.43	8011.73
1375.05	7883.36
1371.67	7957.04
1368.29	8101.61
1364.9	8057.62
1361.52	7889.6
1358.13	7996.33
1354.75	8118.45
1351.36	8017.01
1347.96	8101.4
1344.57	7947.03
1341.18	7965.1
1337.78	7824.19
1334.38	8182.12
1330.98	8005.95
1327.58	8026.15
1324.18	7980.23
1320.77	7985
1317.36	7802.67
1313.96	7847.12
1310.54	7832.16
1307.13	7858.96
1303.72	7865.96
1300.3	7697.32
1296.89	7715.36
1293.47	7698.3
1290.05	7554.1
1286.62	7504.26
1283.2	7570.54
1279.77	7352.2
1276.35	7558.49
1272.92	7563.41
1269.49	7341.03
1266.05	7520.79
1262.62	7525.71
1259.18	7476.07
1255.74	7417.75
1252.3	7483.75
1248.86	7693.48
1245.42	7539.31
1241.97	7489.78
1238.53	7431.59
1235.08	7532.19
1231.63	7684.84
1228.18	7576.68
1224.72	7635.79
1221.27	7816.37
1217.81	7667.08
1214.35	7741.23
1210.89	7808.8
1207.43	7698.72
1203.96	7839.83
1200.5	8197.13
1197.03	8145.39
1193.56	8216.9
1190.09	8443.85
1186.61	8422.29
1183.14	8547.48
1179.66	8899.01
1176.18	8922.5
1172.7	9295.03
1169.22	9445.35
1165.74	9520.19
1162.25	9657.33
1158.76	10228.7
1155.28	10421.2
1151.78	10821.9
1148.29	11061.1
1144.8	11431
1141.3	11965.7
1137.8	12266.1
1134.3	12731.2
1130.8	13204.5
1127.3	13758.5
1123.79	14363.3
1120.29	14961.1
1116.78	15622.4
1113.27	16146.4
1109.75	16528.8
1106.24	17173.4
1102.72	17874.8
1099.21	18121.5
1095.69	18329.6
1092.16	18788.7
1088.64	18642.9
1085.12	18724.9
1081.59	18634.5
1078.06	18484.8
1074.53	18237.4
1071	18009.5
1067.46	17720.2
1063.93	17331.5
1060.39	16930.5
1056.85	16133.7
1053.31	15492.3
1049.77	14997.6
1046.22	14598.6
1042.68	14090
1039.13	13803.9
1035.58	13632
1032.03	13411.9
1028.47	13227.8
1024.92	12938.4
1021.36	12645.1
1017.8	12588.1
1014.24	12063.6
1010.68	12040.6
1007.11	11906.1
1003.54	11618.3
999.977	11364.4
996.406	11037.2
992.834	10783.9
989.26	10545.5
985.684	10517
982.105	10081.9
978.527	10160.6
974.945	9791.02
971.363	9507.66
967.777	9465.13
964.191	9205.22
960.602	9190.06
957.012	9066.3
953.42	9147.24
949.826	8936
946.23	8654.07
942.631	8630.87
939.031	8711.85
935.43	8678.24
931.828	8575.97
928.223	8357.34
924.615	8419.57
921.006	8373.7
917.395	8442.08
913.783	8323.59
910.168	8437.57
906.553	8427.01
902.934	8292.12
899.314	8321
895.691	8175.94
892.068	8153.12
888.443	8153.06
884.814	8109.6
881.186	7942.21
877.555	8020.73
873.922	7777.18
870.287	7746.36
866.65	7744.44
863.012	7699.24
859.371	7429.57
855.729	7427.81
852.084	7368.43
848.438	7261.81
844.789	7262.18
841.139	7075.59
837.488	6911.79
833.834	6930.8
830.178	6787.75
826.521	6954.42
822.861	6889.36
819.199	6791.6
815.537	6835.18
811.871	7026.03
808.205	7120.57
804.537	7257.93
800.865	7160.22
797.193	7336.21
793.518	7371.2
789.842	7477.54
786.164	7428.83
782.484	7457.6
778.801	7582.06
775.117	7433.62
771.432	7389.1
767.744	7210.41
764.055	7235.15
760.363	7198.91
756.67	7270.31
752.975	7169.16
749.277	7133
745.578	7208.38
741.877	7062.83
738.174	7279.9
734.469	7334.84
730.762	7215.74
727.053	7339.39
723.342	7479.07
719.629	7572.16
715.914	7770.11
712.197	7810.48
708.48	8012.14
704.76	8195.45
701.037	8263.73
697.312	8434.63
693.586	8555.04
689.859	8870.43
686.129	9149.31
682.396	9180.74
678.662	9621.83
674.928	9506.45
671.189	9912.8
667.449	10240.5
663.709	10549.9
659.965	10758.7
656.219	11005.4
652.473	11339.9
648.723	11488
644.971	11941.8
641.219	11943.6
637.463	12197
633.705	12597.9
629.947	12996.3
626.186	13115.1
622.422	13568.7
618.658	13478
614.891	13998.5
611.121	14468.8
607.352	14687.9
603.578	15091.7
599.803	15312.4
596.027	15751.2
592.248	16090.3
588.467	16296.1
584.686	16751.5
580.9	16966.7
577.113	17486.7
573.326	17879.4
569.535	18429.9
565.742	18612.2
561.949	18701.3
558.152	18511.8
554.354	18612.7
550.553	18447.2
546.75	17883.4
542.947	17223.6
539.141	16694.6
535.332	15910.1
531.521	15106.7
527.709	14695.6
523.895	14145.3
520.08	14002.4
516.262	13816.3
512.441	13677.6
508.619	13878.5
504.795	13541.8
500.969	13579.8
497.141	13870.5
493.311	13732.1
489.479	13797.3
485.645	13815.5
481.809	13827.9
477.969	13756.8
474.129	13656.6
470.287	13556.4
466.443	13664.5
462.598	13552
458.748	13287.7
454.898	13239.9
451.047	13003.3
447.191	13253.3
443.336	13127.8
439.479	13010.1
435.617	12867.4
431.756	12682
427.891	12931.5
424.025	12936.4
420.156	12615.6
416.285	12547
412.414	12710.9
408.539	12684.9
404.662	12622.1
400.783	12642.6
396.904	12506.5
393.021	12312.6
389.137	12248.3
385.25	12174.3
381.361	12285.6
377.471	12173.1
373.578	12282.3
369.684	12368.3
365.787	12444.6
361.887	12320.7
357.986	12464.2
354.084	12371.2
350.178	12360.9
346.271	12458.1
342.363	12351.8
338.451	12276.3
334.539	12407.8
330.623	12366.8
326.705	12387.1
322.787	12124.3
318.865	11968.7
314.941	12065.7
311.016	11952.4
307.088	11871.6
303.158	11895.9
299.227	11805.8
295.293	11742.4
291.357	11833.4
287.42	11636.7
283.479	11716.3
279.537	11719.6
275.594	11624.1
271.646	11635.1
267.699	11581.5
263.748	11577.3
259.797	11489.6
255.842	11591.7
251.885	11596.9
247.926	11615.4
243.965	11586.6
240.002	11752.7
236.037	11977.3
232.07	11953.9
228.102	11932.5
224.131	11920.6
220.156	11891.6
216.182	11975.9
212.203	11758.5
208.225	11950.1
204.242	12111.4
200.26	12206.7
196.273	12260.4
192.285	12411.9
188.295	12636.5
184.303	12582.9
180.309	12961.1
176.312	12727.2
172.312	12857.4
168.312	12848.8
164.311	12952.5
160.305	12938.2
156.299	13038
152.289	13156.5
148.277	13220.5
144.264	13529.3
140.248	13819.1
136.23	13851
132.211	14080.6
128.189	14065.7
124.166	14421.6
120.141	14365.6
116.111	14475.2
112.08	14091.8
108.049	14688.7
104.014	14640
101.322	14731.4